trial,start_time,rt,correct,condition,mask,test,user_answer,fact_id,question,answer,alpha
1,14674.723969001207,4587.611814000411,True,pitch,True,learning,c,5,c4,c,0.3
2,27174.83294700287,1747.0844889976433,True,pitch,True,learning,c,5,c4,c,0.3
3,37891.64017300209,1637.2895569984394,True,pitch,True,learning,g,3,g3,g,0.3
4,48858.19561400058,1889.0331389993662,True,pitch,True,learning,g,3,g3,g,0.3
5,57924.90213600104,1701.5575180012092,True,pitch,True,learning,b,4,b4,b,0.3
6,69874.47514400264,1707.049657998141,True,pitch,True,learning,c,1,c3,c,0.3
7,83141.30608300184,2839.7673840008792,False,pitch,True,learning,c,4,b4,b,0.3
8,94041.47519800244,2275.361469000927,True,pitch,True,learning,c,1,c3,c,0.3
9,106124.84641000265,2085.912806000124,True,pitch,True,learning,c,5,c4,c,0.26835937500000007
10,116874.80218500059,2631.330039999739,True,pitch,True,learning,g,3,g3,g,0.324609375
11,125641.4797130019,1904.2008180003904,True,pitch,True,learning,e,2,e3,e,0.3
12,134825.3428570024,1375.3915880006389,True,pitch,True,learning,b,4,b4,b,0.28007812499999996
13,149524.6804720009,4810.542090999661,False,pitch,True,learning,c,2,e3,e,0.3
14,167208.03030000025,2861.968496003101,False,pitch,True,learning,g,1,c3,c,0.349609375
15,175874.70995800322,3404.8681120002584,False,pitch,True,learning,c,3,g3,g,0.3375
16,191658.43379200305,4735.80649699943,False,pitch,True,learning,g,2,e3,e,0.349609375
17,204825.37304500147,1843.6078140002792,True,pitch,True,learning,c,1,c3,c,0.328125
18,216325.17854000253,5598.927798000659,False,pitch,True,learning,g,2,e3,e,0.39921874999999996
19,239358.58047900183,2859.933551000722,True,pitch,True,learning,g,3,g3,g,0.387109375
20,251624.96311400173,3358.495287000551,True,pitch,True,learning,e,2,e3,e,0.4371093749999999
21,261658.62859400295,2324.609248997149,False,pitch,True,learning,b,5,c4,c,0.2718750000000001
22,271174.4509130003,7388.5274220010615,True,pitch,True,learning,e,2,e3,e,0.48671874999999987
23,288091.63736200205,3985.870108997915,True,pitch,True,learning,g,3,g3,g,0.4203125
24,299841.1377700031,1266.2113579972065,False,pitch,True,learning,g,2,e3,e,0.5207031249999999
25,309758.74803700205,1368.806725000497,True,pitch,True,learning,b,4,b4,b,0.23046874999999997
26,322941.3805100012,4460.790329001611,False,pitch,True,learning,c,2,e3,e,0.5703125
27,335675.0814200023,5631.98912200093,True,pitch,True,learning,g,3,g3,g,0.429296875
28,352474.51141000056,5707.033496000804,False,pitch,True,learning,c,2,e3,e,0.595703125
29,371625.0081880025,1601.1398480004864,True,pitch,True,learning,c,1,c3,c,0.27851562500000004
30,383357.96099900105,1732.9553620002698,True,pitch,True,learning,e,2,e3,e,0.59453125
31,393507.8874010033,4018.4707499974757,False,pitch,True,learning,e,3,g3,g,0.47890625
32,406158.32876400236,3609.1666239990736,False,pitch,True,learning,c,2,e3,e,0.619140625
33,422641.9162230013,4209.211358000175,False,pitch,True,learning,e,3,g3,g,0.503515625
34,439191.69770400185,8823.469082999509,False,pitch,True,learning,g,2,e3,e,0.6265625
35,462808.40336100303,4946.63179000048,True,pitch,True,learning,g,3,g3,g,0.5156250000000001
36,478524.7108110016,3870.0619189984864,True,pitch,True,learning,e,2,e3,e,0.648046875
37,494608.4727820016,5965.599381001084,False,pitch,True,learning,c,3,g3,g,0.5652343750000002
38,506641.152821001,2318.0289810006507,True,pitch,True,test,c,5,c4,c,0.2933593750000001
39,517075.01853100257,3884.0718239989365,False,pitch,True,test,g,2,e3,e,0.65078125
40,528208.1647090018,1480.4048010009574,True,pitch,True,test,b,4,b4,b,0.21757812499999998
41,539108.6079370034,7199.4841839987785,True,pitch,True,test,b,4,b4,b,0.22343749999999998
42,554341.0202380001,2977.5310950026615,True,pitch,True,test,c,1,c3,c,0.328125
43,568491.1256760024,4172.019830999547,True,pitch,True,test,g,3,g3,g,0.5648437500000002
44,576824.8958110017,3128.0188749987865,True,pitch,True,test,g,3,g3,g,0.5738281250000002
45,584958.2340000016,5314.488423999166,True,pitch,True,test,c,5,c4,c,0.29453125000000013
46,597757.8478660034,3659.8465489987284,True,pitch,True,test,c,1,c3,c,0.37773437499999996
47,606424.6852530014,3362.6371749996906,True,pitch,True,test,e,2,e3,e,0.650390625
48,612502.2732380021,3615.2527740014484,False,pitch,False,learning,e,3,g3,g,0.5804687500000002
49,617591.5326580034,2635.5223760001827,True,pitch,False,learning,e,2,e3,e,0.65078125
50,621491.3524820004,1136.127245001262,True,pitch,False,learning,g,3,g3,g,0.5800781250000002
51,623891.3186120008,986.0318690006388,True,pitch,False,learning,e,2,e3,e,0.648046875
52,626158.3146350022,3459.1373129987624,True,pitch,False,learning,c,1,c3,c,0.37890625
53,630858.380853002,2283.9095589988865,True,pitch,False,learning,e,2,e3,e,0.65078125
54,634508.2865250006,1048.4659430002794,True,pitch,False,learning,g,3,g3,g,0.5679687500000002
55,636891.4520120015,885.3236280010315,True,pitch,False,learning,e,2,e3,e,0.6050781249999999
56,639091.0103470015,1147.7683929987252,True,pitch,False,learning,g,3,g3,g,0.6175781250000003
57,641558.5845290007,928.2245030008489,True,pitch,False,learning,e,2,e3,e,0.6046874999999999
58,643809.2709360026,1019.1263939995551,True,pitch,False,learning,g,3,g3,g,0.5882812500000003
59,646125.6785030018,1117.292868999415,True,pitch,False,learning,c,1,c3,c,0.378515625
60,648524.3817610026,1897.640777999186,True,pitch,False,learning,c,5,c4,c,0.3378906250000001
61,651657.7780120024,878.890183998039,True,pitch,False,learning,g,3,g3,g,0.5386718750000002
62,653791.2740760003,2540.2418940028874,True,pitch,False,learning,e,2,e3,e,0.6050781249999999
63,657624.5700090004,1151.7692310006823,True,pitch,False,learning,c,5,c4,c,0.33750000000000013
64,660024.5317890004,2367.297562002903,False,pitch,False,learning,g,2,e3,e,0.6546875
65,663958.1138940011,1433.061292002094,True,pitch,False,learning,c,1,c3,c,0.40312500000000007
66,666624.5858400034,2606.894474996836,False,pitch,False,learning,g,2,e3,e,0.704296875
67,670458.6413050019,1532.9666229991708,True,pitch,False,learning,g,3,g3,g,0.5882812500000003
68,673242.3675590034,1479.3647049992578,True,pitch,False,learning,e,2,e3,e,0.7539062500000001
69,675957.8581950009,1283.2964100015815,True,pitch,False,learning,g,3,g3,g,0.5917968750000003
70,678541.990372003,829.1411879982334,True,pitch,False,learning,e,2,e3,e,0.7535156250000001
71,680625.3191250034,801.2880850001238,True,pitch,False,learning,g,3,g3,g,0.5906250000000003
72,682758.3415860026,872.9866309986683,True,pitch,False,learning,e,2,e3,e,0.7289062500000001
73,684908.3394550034,1138.1446689993609,True,pitch,False,learning,c,1,c3,c,0.4027343750000001
74,687307.6714850031,1228.746668999549,True,pitch,False,learning,e,2,e3,e,0.7292968750000001
75,689874.9963250011,1256.1870780009776,True,pitch,False,learning,g,3,g3,g,0.6003906250000003
76,692391.8438090004,1049.0821720013628,True,pitch,False,learning,e,2,e3,e,0.7039062500000001
77,694791.5474690017,1079.214402998332,True,pitch,False,learning,g,3,g3,g,0.6218750000000003
78,697175.4352550015,870.375332000549,True,pitch,False,learning,e,2,e3,e,0.658203125
79,699325.5249640024,1001.6073689984623,True,pitch,False,learning,g,3,g3,g,0.6253906250000002
80,701724.6373270027,1421.4209710008,False,pitch,False,learning,b,5,c4,c,0.3386718750000002
81,705308.6747060006,1661.9252870004857,True,pitch,False,learning,g,3,g3,g,0.6312500000000002
82,708191.0060240007,684.5663690001238,True,pitch,False,learning,e,2,e3,e,0.6578125
83,710124.7900790004,865.7730360027635,True,pitch,False,learning,g,3,g3,g,0.6308593750000002
84,712274.7001220013,725.9948089995887,True,pitch,False,learning,e,2,e3,e,0.657421875
85,714341.899115003,758.7325280000223,True,pitch,False,learning,g,3,g3,g,0.6304687500000002
86,716358.1132320033,1142.5162399972323,True,pitch,False,learning,c,1,c3,c,0.37812500000000004
87,718741.7585890035,1458.6317449975759,True,pitch,False,learning,e,2,e3,e,0.6578125
88,721441.6833480027,903.8082509977976,True,pitch,False,learning,g,3,g3,g,0.6058593750000002
89,723674.4812220022,950.9563259999268,True,pitch,False,learning,e,2,e3,e,0.658203125
90,725874.3819120027,1781.6795159997419,True,pitch,False,learning,c,5,c4,c,0.38828125000000013
91,728941.4651860024,2074.3340099980123,False,pitch,False,learning,g,2,e3,e,0.6679687499999999
92,732325.5653320011,1794.6543069994077,True,pitch,False,learning,g,3,g3,g,0.6062500000000002
93,735391.3180670025,919.0956749989418,True,pitch,False,learning,e,2,e3,e,0.6675781249999999
94,737590.9898980026,1539.3441710002953,True,pitch,False,learning,c,5,c4,c,0.4128906250000002
95,740390.9436770009,1274.6088090024423,True,pitch,False,learning,e,2,e3,e,0.7171875
96,742975.142942003,1435.3934600003995,True,pitch,False,learning,g,3,g3,g,0.6558593750000002
97,745657.820157001,732.3431700023357,True,pitch,False,learning,e,2,e3,e,0.668359375
98,747758.8199100028,791.1453019988257,True,pitch,False,learning,g,3,g3,g,0.6062500000000002
99,750008.8004880017,1466.307615999598,True,pitch,False,learning,c,5,c4,c,0.45078125000000013
100,752825.5530210008,1574.5102510008728,True,pitch,False,learning,e,2,e3,e,0.71796875
101,755641.6477810016,1953.802268999396,True,pitch,False,learning,c,5,c4,c,0.46601562500000016
102,758875.1266050022,1539.740494001191,True,pitch,False,learning,e,2,e3,e,0.7597656250000001
103,761691.7732680013,1183.3231310010888,True,pitch,False,learning,g,3,g3,g,0.6191406250000001
104,764158.2223450022,1311.3735759980045,True,pitch,False,learning,e,2,e3,e,0.7726562500000002
105,766758.6275240028,3226.103141998523,True,pitch,False,learning,c,5,c4,c,0.46640625000000013
106,771291.3029880001,1589.101584002492,True,pitch,False,learning,e,2,e3,e,0.7941406250000002
107,774141.313608001,1453.5234930007719,True,pitch,False,learning,g,3,g3,g,0.6570312500000001
108,776808.3102260025,961.4273910010234,True,pitch,False,learning,e,2,e3,e,0.7937500000000002
109,779091.7700770006,988.1264280010946,True,pitch,False,learning,g,3,g3,g,0.632421875
110,781541.7550450002,832.8473010004964,True,pitch,False,learning,e,2,e3,e,0.7722656250000001
111,783674.7107030023,1354.9497790009482,True,pitch,False,learning,c,5,c4,c,0.4785156250000001
112,786225.4545370014,1654.0099539998919,True,pitch,False,learning,e,2,e3,e,0.77265625
113,789358.0528760031,1266.4288220002782,True,pitch,False,learning,g,3,g3,g,0.6328125
114,791874.7877510032,924.2802419976797,True,pitch,False,learning,e,2,e3,e,0.723046875
115,794108.690426001,1390.530980999698,True,pitch,False,learning,c,5,c4,c,0.5156250000000001
116,796691.617026001,773.0750310001895,False,pitch,False,learning,g,2,e3,e,0.7234375
117,798824.4392170018,1700.0306549998932,True,pitch,False,learning,g,3,g3,g,0.651953125
118,801741.3923270033,1377.9008959972998,True,pitch,False,learning,c,5,c4,c,0.5636718750000002
119,804375.3456490012,1879.5025580002693,True,pitch,False,learning,e,2,e3,e,0.773046875
120,807491.0887140031,1313.202648998471,True,pitch,False,learning,c,5,c4,c,0.5640625000000001
121,810075.0652940006,1084.2392690028064,False,pitch,False,learning,g,2,e3,e,0.8226562500000001
122,812491.4408050026,1547.8275569985854,False,pitch,False,learning,e,3,g3,g,0.65859375
123,815908.5199270012,2060.661985000479,True,pitch,False,learning,e,2,e3,e,0.8722656250000002
124,819208.1580020022,1281.005249998998,True,pitch,False,learning,c,5,c4,c,0.5511718750000002
125,821691.9044390016,1136.810731000849,False,pitch,False,learning,g,2,e3,e,0.9218750000000002
126,824357.9929700027,1500.6962369988905,True,pitch,False,learning,g,3,g3,g,0.6746093750000001
127,827141.4315170004,907.1492610019632,True,pitch,False,learning,e,2,e3,e,0.9214843750000002
128,829408.2248330014,785.2883429987123,True,pitch,False,learning,g,3,g3,g,0.6742187500000001
129,831458.2951350021,1285.50625400024,True,pitch,False,learning,e,2,e3,e,0.9210937500000003
130,834307.9498590014,1270.9275580018293,True,pitch,False,learning,c,5,c4,c,0.5507812500000002
131,837042.6087880005,1191.3736950008897,True,pitch,False,learning,e,2,e3,e,0.8714843750000002
132,839575.5139600006,817.9280490002129,True,pitch,False,learning,g,3,g3,g,0.6738281250000001
133,841692.4315810029,756.2524109998485,True,pitch,False,learning,e,2,e3,e,0.8218750000000001
134,843757.8172940011,1555.9953310003038,True,pitch,False,learning,c,1,c3,c,0.37617187500000004
135,846591.6973010026,1241.7072909993585,False,pitch,False,learning,g,2,e3,e,0.8222656250000001
136,849091.0771570016,1277.1903930006083,True,pitch,False,learning,g,3,g3,g,0.6679687500000001
137,852225.2711000001,753.2177120010601,True,pitch,False,learning,e,2,e3,e,0.8078125
138,854325.2525240022,1308.3980509983376,True,pitch,False,learning,c,5,c4,c,0.5503906250000002
139,856891.3365120024,inf,True,pitch,False,learning,e,2,e3,e,0.808203125
140,862091.157103001,1072.0644850007957,True,pitch,False,learning,g,3,g3,g,0.618359375
141,864491.255508001,1282.1776019991376,True,pitch,False,learning,e,2,e3,e,0.8015625000000001
142,867291.5898130013,1451.6699870000593,True,pitch,False,learning,c,5,c4,c,0.5531250000000002
143,869974.6269490024,1633.8654049978359,True,pitch,False,learning,e,2,e3,e,0.8511718750000001
144,872941.7555660002,1516.6786720000673,True,pitch,False,learning,c,5,c4,c,0.5542968750000002
145,875691.7537030021,941.0843170008156,False,pitch,False,learning,g,2,e3,e,0.8882812500000002
146,877925.2994570015,1467.482914999011,True,pitch,False,learning,g,3,g3,g,0.61875
147,880741.7634080012,931.3826680008788,True,pitch,False,learning,e,2,e3,e,0.8878906250000003
148,883008.4461000005,1364.4081660022493,True,pitch,False,learning,c,5,c4,c,0.5664062500000003
149,885608.1536090024,879.6587649994763,True,pitch,False,learning,e,2,e3,e,0.8382812500000002
150,887841.8503040011,1255.956753000617,True,pitch,False,learning,c,1,c3,c,0.37578125000000007
151,890324.6657050004,1713.2929840008728,True,pitch,False,learning,e,2,e3,e,0.8878906250000003
152,893291.4501500018,1401.6350650016684,True,pitch,False,learning,c,5,c4,c,0.5910156250000004
153,895908.4601750001,1138.9295480002183,True,pitch,False,learning,e,2,e3,e,0.8382812500000002
154,898257.825464003,1264.974532998167,True,pitch,False,learning,c,5,c4,c,0.6078125000000004
155,900741.1450240033,1436.2776189991273,True,pitch,False,learning,e,2,e3,e,0.8386718750000002
156,903391.229128003,871.6952049981337,True,pitch,False,learning,c,5,c4,c,0.6074218750000004
157,905474.7994590034,977.9973789991345,True,pitch,False,learning,e,2,e3,e,0.8093750000000002
158,907725.6624690017,1682.1802470003022,True,pitch,False,learning,g,3,g3,g,0.650390625
159,910692.218162003,965.2183239995502,True,pitch,False,learning,e,2,e3,e,0.8089843750000002
160,913108.1957960014,1204.3808970011305,True,pitch,False,learning,g,3,g3,g,0.65
161,915574.356682002,913.2937210014788,True,pitch,False,learning,e,2,e3,e,0.7843750000000002
162,917908.3594970034,1399.1110769966617,True,pitch,False,learning,c,5,c4,c,0.6093750000000004
163,920574.4079100004,2573.223538001883,True,pitch,False,learning,g,3,g3,g,0.650390625
164,924442.0218340019,1330.4805100015365,True,pitch,False,learning,e,2,e3,e,0.7847656250000001
165,926891.8236340033,1401.0535449996823,True,pitch,False,learning,c,5,c4,c,0.6175781250000004
166,929542.036283001,1405.2549190018326,True,pitch,False,learning,e,2,e3,e,0.7851562500000001
167,932208.5714500026,1063.7131740004988,True,pitch,False,learning,g,3,g3,g,0.65
168,934841.7990420021,845.7782679980155,True,pitch,False,learning,e,2,e3,e,0.773046875
169,937024.5203100021,1422.7253930002917,True,pitch,False,learning,c,5,c4,c,0.6398437500000004
170,939791.576327003,935.7043780001113,True,pitch,False,learning,e,2,e3,e,0.7609374999999999
171,942108.8784110034,1348.0109889969463,True,pitch,False,learning,c,5,c4,c,0.6402343750000004
172,944724.6734280016,2287.0175470015965,True,pitch,False,learning,g,3,g3,g,0.650390625
173,948225.0901950028,1021.705391998752,False,pitch,False,learning,e,5,c4,c,0.6429687500000004
174,950507.8038640022,1604.2024130001664,True,pitch,False,learning,e,2,e3,e,0.8097656249999999
175,953324.7951680024,1532.3150730000343,True,pitch,False,learning,c,5,c4,c,0.6566406250000005
176,956674.7417900006,1362.3182150004432,True,pitch,False,learning,e,2,e3,e,0.8132812499999998
177,959308.5120440009,1758.1812390018022,True,pitch,False,learning,g,3,g3,g,0.7000000000000001
178,962841.6821330029,924.842438998865,True,pitch,False,learning,e,2,e3,e,0.7636718749999998
179,965075.2440660035,926.6170389965409,True,pitch,False,learning,g,3,g3,g,0.6996093750000001
180,967341.6935260029,inf,True,pitch,False,learning,c,5,c4,c,0.7062500000000006
181,970241.7672090014,1639.6937089994317,True,pitch,False,learning,g,3,g3,g,0.7039062500000001
182,973158.6872620028,1557.9031149973162,True,pitch,False,learning,c,5,c4,c,0.7558593750000007
183,975958.4160980012,1863.2682930001756,True,pitch,False,learning,g,3,g3,g,0.7535156250000001
184,979124.8555610001,1396.2976910006255,True,pitch,False,learning,c,5,c4,c,0.7554687500000007
185,981975.1773410025,1201.644246997661,False,pitch,False,learning,e,3,g3,g,0.7539062500000001
186,984924.4708390033,2092.169888997916,True,pitch,False,learning,c,5,c4,c,0.7808593750000007
187,988191.5568430013,1374.6046000014758,True,pitch,False,learning,g,3,g3,g,0.7972656250000002
188,990874.8426250021,1316.5845719996141,True,pitch,False,learning,c,5,c4,c,0.7562500000000006
189,993491.2609070016,inf,True,pitch,False,learning,g,3,g3,g,0.8421875000000003
190,998424.449604001,3156.3432210022584,True,pitch,False,learning,c,5,c4,c,0.7566406250000006
191,1003191.512284,1809.264349001809,True,pitch,False,learning,g,3,g3,g,0.8417968750000003
192,1006607.7668020007,2803.3234030008316,True,pitch,False,learning,c,5,c4,c,0.8062500000000007
193,1011008.0401440028,1733.0523519994458,True,pitch,False,learning,g,3,g3,g,0.8171875000000003
194,1014558.1340240024,12552.635142998071,False,pitch,False,learning,e,5,c4,c,0.8558593750000008
195,1028675.3473510034,1495.4913799993228,False,pitch,False,learning,c,3,g3,g,0.8175781250000003
196,1031791.7546000027,inf,True,pitch,False,learning,c,5,c4,c,0.9054687500000008
197,1036591.5001680005,1994.3971470020479,False,pitch,False,learning,e,3,g3,g,0.8671875000000003
198,1039791.7617370003,1073.510133999749,False,pitch,False,learning,g,5,c4,c,0.9550781250000009
199,1042158.2205790001,inf,True,pitch,False,learning,g,3,g3,g,0.9011718750000003
200,1046091.5735860035,1149.6198919994058,True,pitch,False,learning,c,5,c4,c,0.9296875000000009
201,1048441.698472001,1168.4031539988937,True,pitch,False,learning,g,3,g3,g,0.9007812500000003
202,1051141.7298250017,1078.5386040005833,True,pitch,False,learning,c,5,c4,c,0.8925781250000008
203,1053491.1559870015,1009.2105709991883,True,pitch,False,learning,g,3,g3,g,0.9003906250000003
204,1055808.1415810012,911.8354099991266,True,pitch,False,learning,c,5,c4,c,0.8859375000000008
205,1057891.6729210033,1003.6332979979925,True,pitch,False,learning,g,3,g3,g,0.8507812500000003
206,1060341.438888001,998.8044359998312,True,pitch,False,learning,c,5,c4,c,0.8363281250000008
207,1062791.8852340009,2103.104082001606,True,pitch,False,learning,e,2,e3,e,0.7265624999999997
208,1066208.335678002,1686.4273559986614,True,pitch,False,learning,g,3,g3,g,0.8511718750000002
209,1069158.4843670025,1196.6988479981665,True,pitch,False,learning,c,5,c4,c,0.7867187500000007
210,1071608.27538,1626.9943080006633,True,pitch,False,learning,g,3,g3,g,0.8515625000000002
211,1074441.568192,1148.1263350031804,True,pitch,False,learning,e,2,e3,e,0.7191406249999996
212,1076875.270108001,994.3502900023013,True,pitch,False,learning,g,3,g3,g,0.8019531250000002
213,1079241.2346850033,1118.553180997027,True,pitch,False,learning,c,5,c4,c,0.7371093750000006
214,1081608.0255160013,1001.588215000229,True,pitch,False,learning,g,3,g3,g,0.7773437500000001
215,1083858.5577800004,956.3664280031808,True,pitch,False,learning,e,2,e3,e,0.7171874999999996
216,1086142.095317002,1912.5157989982981,True,pitch,False,learning,c,1,c3,c,0.3769531250000001
217,1089257.7237870027,1917.2739210007712,False,pitch,False,learning,e,3,g3,g,0.8269531250000002
218,1092441.697677001,1492.7359680002555,True,pitch,False,learning,c,5,c4,c,0.7460937500000006
219,1095974.9175350007,4739.899102001684,True,pitch,False,test,e,2,e3,e,0.7183593749999997
220,1101541.9228240026,1392.8422889984213,True,pitch,False,test,b,4,b4,b,0.207421875
221,1103391.6609180016,1072.5806689986493,True,pitch,False,test,b,4,b4,b,0.209375
222,1104874.4087540035,3850.1487409994006,True,pitch,False,test,c,1,c3,c,0.3773437500000001
223,1109091.4267040025,2992.8477239990607,False,pitch,False,test,g,2,e3,e,0.7187499999999997
224,1112491.1756010007,1138.0266980011947,False,pitch,False,test,e,3,g3,g,0.8765625000000002
225,1114107.8555370003,2041.6281950019766,True,pitch,False,test,c,1,c3,c,0.38945312500000007
226,1117991.200137003,4548.241111999145,False,pitch,False,test,e,3,g3,g,0.9144531250000002
227,1123008.4901360024,3175.9728129981086,True,pitch,False,test,c,5,c4,c,0.7496093750000005
228,1126640.9874540004,953.0416680027265,True,pitch,False,test,c,5,c4,c,0.7468750000000005

1,8255.518332000065,2681.9296890025726,True,instrument,True,learning,accordeon,1,accordeon,accordeon,0.3
2,20607.689686999947,2809.654374003003,True,instrument,True,learning,accordeon,1,accordeon,accordeon,0.3
3,30641.30850300353,3320.852760996786,True,instrument,True,learning,french horn,6,frenchhorn,french horn,0.3
4,41691.6246480032,3342.1558209993236,True,instrument,True,learning,french horn,6,frenchhorn,french horn,0.3
5,52024.32232400315,3852.4988399985887,True,instrument,True,learning,harmonica,7,harmonica,harmonica,0.3
6,61908.07886600305,6493.758096999954,True,instrument,True,learning,clarinet,2,clarinet,clarinet,0.3
7,73574.2949710002,8342.546599000343,True,instrument,True,learning,harmonica,7,harmonica,harmonica,0.3
8,87225.12333900158,5431.412260000798,False,instrument,True,learning,flute,2,clarinet,clarinet,0.3
9,97591.23816600186,7079.781592998188,True,instrument,True,learning,accordeon,1,accordeon,accordeon,0.349609375
10,109658.62584600109,5751.941493999766,True,instrument,True,learning,french horn,6,frenchhorn,french horn,0.349609375
11,120907.69855000326,3352.608937999321,True,instrument,True,learning,electric guitar,4,electric_guitar,electric guitar,0.3
12,129057.8248640013,4457.489422002254,True,instrument,True,learning,harmonica,7,harmonica,harmonica,0.349609375
13,137424.75408000246,10910.455977998936,True,instrument,True,learning,electric guitar,4,electric_guitar,electric guitar,0.3
14,155558.35974500224,10266.828424999403,True,instrument,True,learning,accordeon,1,accordeon,accordeon,0.39921874999999996
15,171274.62121700228,2755.156266000995,False,instrument,True,learning,flute,2,clarinet,clarinet,0.349609375
16,180474.88150300342,inf,True,instrument,True,learning,french horn,6,frenchhorn,french horn,0.39921874999999996
17,197658.11000900067,5966.016563001176,True,instrument,True,learning,harmonica,7,harmonica,harmonica,0.39921874999999996
18,207875.0384390005,6864.377941001294,True,instrument,True,learning,accordeon,1,accordeon,accordeon,0.423828125
19,223291.75252700225,14726.93511000034,True,instrument,True,learning,electric guitar,4,electric_guitar,electric guitar,0.349609375
20,243508.6436240017,6824.82227500077,True,instrument,True,learning,french horn,6,frenchhorn,french horn,0.418359375
21,256158.05570900193,4255.5045890003385,True,instrument,True,learning,clarinet,2,clarinet,clarinet,0.375
22,265142.20738800213,4600.728825000289,True,instrument,True,learning,harmonica,7,harmonica,harmonica,0.423828125
23,279758.4144740031,6979.258449999208,True,instrument,True,learning,accordeon,1,accordeon,accordeon,0.4296875
24,293258.68443600123,5283.767754000961,True,instrument,True,learning,electric guitar,4,electric_guitar,electric guitar,0.39921874999999996
25,302341.5324200032,5846.089268998185,True,instrument,True,learning,french horn,6,frenchhorn,french horn,0.41953125
26,312391.31670300046,9295.776770002733,True,instrument,True,learning,harmonica,7,harmonica,harmonica,0.42578125
27,328707.93070300354,5008.966319997795,False,instrument,True,learning,flute,2,clarinet,clarinet,0.39960937500000004
28,342525.0200520022,8771.722800000163,True,instrument,True,learning,electric guitar,4,electric_guitar,electric guitar,0.41523437499999993
29,359475.1241260019,10931.148988998786,False,instrument,True,learning,harmonica,1,accordeon,accordeon,0.45429687500000004
30,374474.874083,7601.096017002477,True,instrument,True,learning,french horn,6,frenchhorn,french horn,0.44414062500000007
31,386608.6101580004,5698.101771002286,True,instrument,True,learning,harmonica,7,harmonica,harmonica,0.45039062500000004
32,398724.8031400013,6241.010706999048,False,instrument,True,learning,fsemicolonute,2,clarinet,clarinet,0.4046875
33,411007.9579010017,10412.839068001602,True,instrument,True,learning,electric guitar,4,electric_guitar,electric guitar,0.41874999999999996
34,428157.9667790029,9702.420739999041,True,instrument,True,learning,accordeon,1,accordeon,accordeon,0.4750000000000001
35,449507.9149010016,inf,False,instrument,True,learning,harmonica,6,frenchhorn,french horn,0.48125000000000007
36,469208.6982150031,8041.01489399909,True,instrument,True,learning,harmonica,7,harmonica,harmonica,0.48750000000000004
37,484157.96402000345,9111.15142199921,True,instrument,True,learning,accordeon,1,accordeon,accordeon,0.48398437500000013
38,503124.1036060019,2909.948546999658,True,instrument,True,test,clarinet,2,clarinet,clarinet,0.429296875
39,509458.18848600175,6865.873881000851,True,instrument,True,test,flute,5,flute,flute,0.3
40,521475.30733300303,3638.3988259985344,True,instrument,True,test,electric guitar,4,electric_guitar,electric guitar,0.46210937499999993
41,530174.3641100002,8514.023957002792,True,instrument,True,test,harmonica,7,harmonica,harmonica,0.496484375
42,546841.038706003,6547.100648000254,True,instrument,True,test,piano,10,piano,piano,0.3
43,559391.3507290017,8186.781709999195,True,instrument,True,test,french horn,6,frenchhorn,french horn,0.4902343750000001
44,573158.5682370024,3134.3626779998885,True,instrument,True,test,drums,3,drums,drums,0.3
45,580524.3844570032,3418.605307997437,True,instrument,True,test,maraccas,9,maraccas,maraccas,0.3
46,590841.7615060025,6345.728300999268,True,instrument,True,test,accordeon,1,accordeon,accordeon,0.5023437500000002
47,602041.0271130023,2391.8234369993443,True,instrument,True,test,harp,8,harp,harp,0.3
48,1129814.3328550032,6930.070542999543,True,instrument,True,learning,flute,5,flute,flute,0.3
49,1143657.803895003,2071.27256400045,True,instrument,True,learning,piano,10,piano,piano,0.3
50,1154958.6082590031,1855.0305309980176,True,instrument,True,learning,drums,3,drums,drums,0.3
51,1162874.6561960033,2369.284237996908,True,instrument,True,learning,maraccas,9,maraccas,maraccas,0.3
52,1173907.7819290033,inf,True,instrument,True,learning,harp,8,harp,harp,0.3
53,1186225.1518210033,9137.696817997377,True,instrument,True,learning,harmonica,7,harmonica,harmonica,0.49531249999999993
54,1208257.9520440013,4234.680699999444,True,instrument,True,learning,electric guitar,4,electric_guitar,electric guitar,0.41874999999999996
55,1220674.6238320011,inf,True,instrument,True,learning,french horn,6,frenchhorn,french horn,0.4843750000000001
56,1242957.9891000031,4216.824852999533,False,instrument,True,learning,harmonica,1,accordeon,accordeon,0.4902343750000002
57,1255774.5788210013,inf,True,instrument,True,learning,clarinet,2,clarinet,clarinet,0.40625
58,1266541.592460002,7360.208500998793,True,instrument,True,learning,harmonica,7,harmonica,harmonica,0.4707031249999999
59,1280475.212954003,inf,True,instrument,True,learning,french horn,6,frenchhorn,french horn,0.4785156250000001
60,1298058.3322870007,8378.748399001779,True,instrument,True,learning,accordeon,1,accordeon,accordeon,0.4921875000000002
61,1313807.9469600015,2619.166251999559,True,instrument,True,learning,flute,5,flute,flute,0.250390625
62,1324374.9846120009,2715.7798190019093,True,instrument,True,learning,piano,10,piano,piano,0.250390625
63,1334925.3697070016,2185.602784000337,True,instrument,True,learning,drums,3,drums,drums,0.250390625
64,1351324.7934280008,2855.58111499995,True,instrument,True,learning,maraccas,9,maraccas,maraccas,0.250390625
65,1361191.2014690023,2994.5667949980125,True,instrument,True,learning,harp,8,harp,harp,0.250390625
66,1372608.0647870004,4432.120512999827,True,instrument,True,learning,electric guitar,4,electric_guitar,electric guitar,0.422265625
67,1384224.771227,11415.182777000125,True,instrument,True,learning,french horn,6,frenchhorn,french horn,0.4789062500000001
68,1402342.050092,11252.781676001381,True,instrument,True,learning,accordeon,1,accordeon,accordeon,0.4925781250000002
69,1421225.1466220005,inf,True,instrument,True,learning,harmonica,7,harmonica,harmonica,0.47109374999999987
70,1436808.1080640005,2001.137177001452,False,instrument,True,learning,flute,2,clarinet,clarinet,0.41914062500000004
71,1446158.156313002,inf,True,instrument,True,learning,french horn,6,frenchhorn,french horn,0.47929687500000007
72,1462874.9334010025,inf,True,instrument,True,learning,accordeon,1,accordeon,accordeon,0.4929687500000002
73,1477108.3342460005,5200.763050001115,True,instrument,True,learning,electric guitar,4,electric_guitar,electric guitar,0.42265624999999996
74,1488508.089703002,6085.5087349992245,True,instrument,True,learning,harmonica,7,harmonica,harmonica,0.47148437499999984
75,1507858.7885630005,4298.9836640008725,True,instrument,True,learning,clarinet,2,clarinet,clarinet,0.41953125
76,1518924.5655250016,7513.031300000846,False,instrument,True,learning,electric guitar,6,frenchhorn,french horn,0.47968750000000004
77,1534741.051604,12411.28388900333,True,instrument,True,learning,accordeon,1,accordeon,accordeon,0.49335937500000016
78,1553757.9135880005,10838.976781000383,True,instrument,True,learning,harmonica,7,harmonica,harmonica,0.4718749999999998
79,1574108.6177060024,9703.602156998357,True,instrument,True,learning,electric guitar,4,electric_guitar,electric guitar,0.42304687499999993
80,1596541.749983,inf,True,instrument,True,learning,french horn,6,frenchhorn,french horn,0.5167968750000002
81,1616002.162251003,2249.5338309998624,True,instrument,True,test,flute,5,flute,flute,0.25078124999999996
82,1642808.6600420028,2007.1661719994154,True,instrument,True,test,harp,8,harp,harp,0.25078124999999996
83,1650691.3157820017,2359.5452180015855,True,instrument,True,test,maraccas,9,maraccas,maraccas,0.25078124999999996
84,1658674.4995520022,3166.463891000487,True,instrument,True,test,drums,3,drums,drums,0.25078124999999996
85,1666625.0210630023,8010.760486999061,True,instrument,True,test,electric guitar,4,electric_guitar,electric guitar,0.4234374999999999
86,1679341.304626003,4384.3620169973,True,instrument,True,test,piano,10,piano,piano,0.25078124999999996
87,1689491.122737003,5708.82925299881,True,instrument,True,test,french horn,6,frenchhorn,french horn,0.5289062500000002
88,1706257.635451002,4467.3732689989265,True,instrument,True,test,harmonica,7,harmonica,harmonica,0.49648437499999987
89,1717041.869888002,2278.2494989987463,False,instrument,True,test,flute,2,clarinet,clarinet,0.419921875
90,1732091.1974590018,4658.228486001259,True,instrument,True,test,accordeon,1,accordeon,accordeon,0.5085937500000003

1,1137991.335747003,3672.164396997774,True,interval,True,learning,major seventh,3,11,major seventh,0.3
2,1148558.4340220012,5104.999647999648,True,interval,True,learning,major seventh,3,11,major seventh,0.3
3,1158275.0068040004,3308.6627680023666,True,interval,True,learning,major third,1,4,major third,0.3
4,1166975.0307740034,5528.632843997795,True,interval,True,learning,major third,1,4,major third,0.3
5,1179040.9585160015,5732.294549001381,True,interval,True,learning,perfect unison,0,0,perfect unison,0.3
6,1196558.3324090003,inf,True,interval,True,learning,major seventh,3,11,major seventh,0.349609375
7,1214058.5918960024,5244.434907999588,True,interval,True,learning,perfect unison,0,0,perfect unison,0.3
8,1229474.8356540003,12178.42152000242,False,interval,True,learning,major seventh,1,4,major third,0.349609375
9,1249924.710239,4522.640333001735,True,interval,True,learning,major seventh,3,11,major seventh,0.39921874999999996
10,1261625.4773390028,3576.5709599982947,True,interval,True,learning,perfect octave,4,12,perfect octave,0.3
11,1275091.957759003,4074.9480269989,True,interval,True,learning,major third,1,4,major third,0.39921874999999996
12,1292641.3797000023,4180.20395699935,True,interval,True,learning,perfect octave,4,12,perfect octave,0.3
13,1307808.3155210007,4703.136926000239,True,interval,True,learning,major seventh,3,11,major seventh,0.44648437499999993
14,1318691.212326001,4334.675816000439,True,interval,True,learning,perfect unison,0,0,perfect unison,0.349609375
15,1329224.8035740012,4195.90475700167,True,interval,True,learning,major third,1,4,major third,0.4488281249999999
16,1338608.1331080021,11402.409882001113,True,interval,True,learning,major seventh,3,11,major seventh,0.4585937499999999
17,1355691.2151820033,4159.354035997298,True,interval,True,learning,major third,1,4,major third,0.45546874999999987
18,1365858.5725830016,5241.39235699852,True,interval,True,learning,perfect octave,4,12,perfect octave,0.349609375
19,1379025.505472,3864.4498260000255,True,interval,True,learning,perfect unison,0,0,perfect unison,0.35624999999999996
20,1396924.583924003,4115.3647649989,True,interval,True,learning,major seventh,3,11,major seventh,0.4644531249999999
21,1414908.478235,5121.255875001196,True,interval,True,learning,major third,1,4,major third,0.46757812499999984
22,1431391.3984300015,4267.863780998625,True,interval,True,learning,perfect octave,4,12,perfect octave,0.38359374999999996
23,1440725.2677560027,4144.035483997781,True,interval,True,learning,major seventh,3,11,major seventh,0.5140625
24,1457658.3788180032,3980.6410179990344,True,interval,True,learning,major third,1,4,major third,0.5171874999999999
25,1472158.1340480007,3670.2878810027614,True,interval,True,learning,major seventh,3,11,major seventh,0.530859375
26,1483692.0729020021,3536.694432001328,True,interval,True,learning,major third,1,4,major third,0.541796875
27,1495792.0224900008,10757.01261300128,True,interval,True,learning,major seventh,3,11,major seventh,0.5429687500000001
28,1513474.7983060007,4173.452694001608,True,interval,True,learning,major third,1,4,major third,0.5484374999999999
29,1527591.6451390004,6001.1187430026475,True,interval,True,learning,perfect octave,4,12,perfect octave,0.384765625
30,1548491.1354830002,3986.212499999907,True,interval,True,learning,major seventh,3,11,major seventh,0.5675781250000002
31,1565791.7182640012,7085.59251400223,True,interval,True,learning,major third,1,4,major third,0.573046875
32,1585008.4243920029,10353.421502997633,False,interval,True,learning,major third,3,11,major seventh,0.5906250000000002
33,1609942.077019001,3719.461471002316,True,interval,True,learning,major third,1,4,major third,0.59765625
34,1619507.8249060025,22788.66576699866,False,interval,True,test,major seventh,1,4,major third,0.601953125
35,1645841.5260680013,4419.197481998708,True,interval,True,test,perfect octave,4,12,perfect octave,0.421875
36,1654158.2160340003,3948.4246000030544,True,interval,True,test,perfect fifth,2,7,perfect fifth,0.3
37,1662241.397179001,3889.416189002106,True,interval,True,test,perfect unison,0,0,perfect unison,0.365234375
38,1675141.3768580023,3679.2134349998087,True,interval,True,test,perfect unison,0,0,perfect unison,0.36796874999999996
39,1684641.446933001,4364.3658000002615,True,interval,True,test,major seventh,3,11,major seventh,0.5902343750000002
40,1695741.8299110031,10037.4278679993,True,interval,True,test,perfect octave,4,12,perfect octave,0.430078125
41,1711741.0331790014,4894.252829999663,True,interval,True,test,major third,1,4,major third,0.6015625
42,1719641.945157,inf,False,interval,True,test,perfect fifth,3,11,major seventh,0.6023437500000003
43,1737158.3698840004,4030.804922000272,True,interval,True,test,perfect fifth,2,7,perfect fifth,0.3
44,1956211.0001970031,14684.819122998277,True,interval,False,learning,major third,1,4,major third,0.5886718750000001
45,1972391.8384390017,inf,True,interval,False,learning,major seventh,3,11,major seventh,0.5683593750000003
46,1979942.076915002,8188.804457000457,True,interval,False,learning,perfect octave,4,12,perfect octave,0.4296875
47,1989424.7556560002,12160.950567002175,True,interval,False,learning,major third,1,4,major third,0.5890625
48,2002824.4523320026,6440.844881999539,True,interval,False,learning,perfect fifth,2,7,perfect fifth,0.300390625
49,2010691.1426290027,14203.867632997455,True,interval,False,learning,major seventh,3,11,major seventh,0.5687500000000003
50,2026191.6372700033,6683.521634997334,True,interval,False,learning,major third,1,4,major third,0.589453125
51,2034341.5239770003,5388.364844002295,True,interval,False,learning,perfect unison,0,0,perfect unison,0.38007812499999993
52,2041075.0530250007,15334.374222002225,False,interval,False,learning,major third,3,11,major seventh,0.5691406250000003
53,2057608.1539250007,9511.434691001428,True,interval,False,learning,major third,1,4,major third,0.58984375
54,2068291.8386280034,4153.0219359993935,True,interval,False,learning,perfect octave,4,12,perfect octave,0.435546875
55,2073757.8945270034,inf,True,interval,False,learning,major seventh,3,11,major seventh,0.5835937500000004
56,2085725.2823130002,3999.268385003321,True,interval,False,learning,major third,1,4,major third,0.590234375
57,2090941.3198210022,5562.969317001291,True,interval,False,learning,major seventh,3,11,major seventh,0.5839843750000003
58,2097808.563518003,3555.1288489988074,True,interval,False,learning,perfect unison,0,0,perfect unison,0.39296875
59,2102658.7125040023,16060.23864599783,True,interval,False,learning,major third,1,4,major third,0.63984375
60,2119925.8773760013,11287.647886001505,False,interval,False,learning,perfect fifth,3,11,major seventh,0.6335937500000004
61,2132741.3561390024,5507.012027999386,True,interval,False,learning,major third,1,4,major third,0.6582031250000001
62,2139442.321548002,8616.096812998876,True,interval,False,learning,major seventh,3,11,major seventh,0.6707031250000005
63,2149340.976606003,6247.260725998785,True,interval,False,learning,major third,1,4,major third,0.6828125000000002
64,2156791.989255002,13570.845250000246,True,interval,False,learning,major seventh,3,11,major seventh,0.6890625000000006
65,2171641.8517540004,9355.763854000717,False,interval,False,learning,major seventh,1,4,major third,0.7074218750000002
66,2182308.5156040033,12100.05690299999,False,interval,False,learning,major third,3,11,major seventh,0.7074218750000006
67,2195624.644845,4618.010040001478,True,interval,False,learning,major third,1,4,major third,0.7320312500000002
68,2201457.9854810038,12011.978875998408,False,interval,False,learning,major third,3,11,major seventh,0.7195312500000007
69,2214691.7424830026,4660.7736849985085,True,interval,False,learning,major third,1,4,major third,0.7347656250000002
70,2220574.7517790003,4192.630522000603,True,interval,False,learning,major seventh,3,11,major seventh,0.7378906250000008
71,2226075.5133260028,5426.53216899978,False,interval,False,learning,major seventh,1,4,major third,0.7359375000000002
72,2232841.0833100025,9880.887076000217,True,interval,False,learning,major seventh,3,11,major seventh,0.7500000000000008
73,2243992.2131420025,3709.558590999339,True,interval,False,learning,major third,1,4,major third,0.7542968750000003
74,2248841.1312140017,4980.661050998606,True,interval,False,learning,major seventh,3,11,major seventh,0.7621093750000009
75,2255125.0745880026,3976.6837509996258,True,interval,False,learning,major third,1,4,major third,0.7796875000000003
76,2260375.0565940025,inf,False,interval,False,learning,perfect octave,3,11,major seventh,0.7992187500000009
77,2270407.846622002,4953.553665000014,True,interval,False,learning,major third,1,4,major third,0.8167968750000004
78,2276624.849420001,4076.751632001251,False,interval,False,learning,perfect octave,3,11,major seventh,0.814453125000001
79,2281907.923810002,13628.69163600076,False,interval,False,learning,major seventh,1,4,major third,0.8335937500000005
80,2296808.1814400028,3603.100879998412,True,interval,False,learning,major seventh,3,11,major seventh,0.814062500000001
81,2301675.1075070025,10600.580894999206,True,interval,False,learning,major third,1,4,major third,0.8332031250000005
82,2313491.5681030033,3674.552537999116,True,interval,False,learning,major seventh,3,11,major seventh,0.826171875000001
83,2318475.168524001,3700.3334639994428,False,interval,False,learning,major seventh,1,4,major third,0.8375000000000005
84,2323474.6613260033,5526.013613998424,False,interval,False,learning,perfect octave,3,11,major seventh,0.8296875000000009
85,2330159.0454700016,11801.267631999683,True,interval,False,learning,major third,1,4,major third,0.8378906250000004
86,2343141.4976600027,4474.107424997725,True,interval,False,learning,major seventh,3,11,major seventh,0.8300781250000009
87,2348925.7219820027,3714.5929740001447,True,interval,False,learning,major third,1,4,major third,0.8437500000000004
88,2353842.0693800035,3957.9879909981973,True,interval,False,learning,major seventh,3,11,major seventh,0.8359375000000009
89,2359041.8057780005,5043.393350999802,True,interval,False,learning,major third,1,4,major third,0.8464843750000005
90,2365274.975367003,4014.689247997012,True,interval,False,learning,major seventh,3,11,major seventh,0.885546875000001
91,2370575.0719640017,4384.693421998527,False,interval,False,learning,major seventh,1,4,major third,0.8710937500000006
92,2376224.538687002,5560.782778000459,True,interval,False,learning,major seventh,3,11,major seventh,0.8898437500000009
93,2383058.911123,8625.53364500124,True,interval,False,learning,major third,1,4,major third,0.8957031250000006
94,2392874.7406500005,8649.84992999956,False,interval,False,learning,major third,3,11,major seventh,0.889453125000001
95,2402741.9818730014,3822.679133001715,False,interval,False,learning,major seventh,1,4,major third,0.8953125000000006
96,2407858.3963160017,11155.896385000553,False,interval,False,learning,major third,3,11,major seventh,0.889062500000001
97,2420175.366452,3983.574457000941,True,interval,False,learning,major third,1,4,major third,0.8949218750000006
98,2425341.5618720027,4008.3389510000125,True,interval,False,learning,major seventh,3,11,major seventh,0.885546875000001
99,2430608.526469001,3615.2638029996306,True,interval,False,learning,major third,1,4,major third,0.9039062500000007
100,2435425.467570003,3674.0694729997776,True,interval,False,learning,major seventh,3,11,major seventh,0.8859375000000009
101,2441186.675500001,3734.9481070013717,True,interval,False,test,perfect unison,0,0,perfect unison,0.39335937499999996
102,2445458.774797,8429.595556001179,True,interval,False,test,major seventh,3,11,major seventh,0.8863281250000009
103,2454374.756709003,4779.268020996824,False,interval,False,test,major seventh,4,12,perfect octave,0.43515625
104,2459624.421165001,4584.404007000383,False,interval,False,test,perfect octave,2,7,perfect fifth,0.30156250000000007
105,2464724.5887630014,6714.135827998631,True,interval,False,test,major third,1,4,major third,0.8675781250000008
106,2471774.713355,4883.374589000829,True,interval,False,test,major third,1,4,major third,0.8679687500000007
107,2477291.5846370016,3791.8487999993376,True,interval,False,test,perfect unison,0,0,perfect unison,0.41874999999999996
108,2481574.4847390014,4368.656636001077,True,interval,False,test,perfect octave,4,12,perfect octave,0.435546875
109,2486291.708044002,6461.544843001291,True,interval,False,test,perfect fifth,2,7,perfect fifth,0.30195312500000004
110,2493291.7202530005,4606.360362002626,True,interval,False,test,major seventh,3,11,major seventh,0.8757812500000008

